##TITLE= 
##JCAMP-DX= 5.00
##DATA TYPE= MASS SPECTRUM
##DATA CLASS= PEAK TABLE
##XUNITS= M/Z
##YUNITS= RELATIVE ABUNDANCE
##NPOINTS= 289
##PEAK TABLE= (XY..XY)
1786.88, 68.0
1786.86, 59.0
1786.84, 52.0
1786.82, 56.0
1786.79, 46.0
1786.77, 57.0
1786.75, 69.0
1786.72, 77.0
1786.7, 74.0
1786.68, 74.0
1786.66, 67.0
1786.63, 91.0
1786.61, 67.0
1786.59, 99.0
1786.56, 97.0
1786.54, 87.0
1786.52, 93.0
1786.5, 103.0
1786.47, 120.0
1786.45, 112.0
1786.43, 122.0
1786.41, 180.0
1786.38, 161.0
1786.36, 194.0
1786.34, 218.0
1786.31, 250.0
1786.29, 297.0
1786.27, 296.0
1786.25, 359.0
1786.22, 407.0
1786.2, 453.0
1786.18, 465.0
1786.16, 515.0
1786.13, 501.0
1786.11, 505.0
1786.09, 467.0
1786.06, 461.0
1786.04, 354.0
1786.02, 304.0
1786.0, 274.0
1785.97, 200.0
1785.95, 148.0
1785.93, 148.0
1785.91, 136.0
1785.88, 103.0
1785.86, 89.0
1785.84, 74.0
1785.81, 98.0
1785.79, 82.0
1785.77, 85.0
1785.75, 109.0
1785.72, 79.0
1785.7, 91.0
1785.68, 103.0
1785.66, 85.0
1785.63, 104.0
1785.61, 105.0
1785.59, 128.0
1785.56, 113.0
1785.54, 134.0
1785.52, 132.0
1785.5, 130.0
1785.47, 169.0
1785.45, 170.0
1785.43, 197.0
1785.41, 239.0
1785.38, 284.0
1785.36, 303.0
1785.34, 309.0
1785.31, 386.0
1785.29, 449.0
1785.27, 525.0
1785.25, 595.0
1785.22, 629.0
1785.2, 738.0
1785.18, 765.0
1785.16, 867.0
1785.13, 814.0
1785.11, 824.0
1785.09, 756.0
1785.06, 653.0
1785.04, 565.0
1785.02, 439.0
1785.0, 337.0
1784.97, 307.0
1784.95, 212.0
1784.93, 179.0
1784.91, 164.0
1784.88, 138.0
1784.86, 117.0
1784.84, 114.0
1784.81, 106.0
1784.79, 98.0
1784.77, 71.0
1784.75, 76.0
1784.72, 93.0
1784.7, 89.0
1784.68, 100.0
1784.66, 98.0
1784.63, 99.0
1784.61, 141.0
1784.59, 146.0
1784.56, 191.0
1784.54, 183.0
1784.52, 210.0
1784.5, 260.0
1784.47, 258.0
1784.45, 341.0
1784.43, 414.0
1784.41, 510.0
1784.38, 531.0
1784.36, 688.0
1784.34, 825.0
1784.31, 916.0
1784.29, 1098.0
1784.27, 1167.0
1784.25, 1499.0
1784.22, 1558.0
1784.2, 1818.0
1784.18, 2011.0
1784.16, 2072.0
1784.13, 2037.0
1784.11, 2012.0
1784.09, 1778.0
1784.06, 1599.0
1784.04, 1411.0
1784.02, 1131.0
1784.0, 838.0
1783.97, 678.0
1783.95, 495.0
1783.93, 392.0
1783.91, 315.0
1783.88, 243.0
1783.86, 218.0
1783.84, 208.0
1783.81, 141.0
1783.79, 163.0
1783.77, 131.0
1783.75, 118.0
1783.72, 127.0
1783.7, 121.0
1783.68, 144.0
1783.66, 121.0
1783.63, 132.0
1783.61, 167.0
1783.59, 173.0
1783.56, 209.0
1783.54, 231.0
1783.52, 286.0
1783.5, 324.0
1783.47, 411.0
1783.45, 485.0
1783.43, 608.0
1783.41, 694.0
1783.38, 753.0
1783.36, 911.0
1783.34, 1048.0
1783.31, 1299.0
1783.29, 1443.0
1783.27, 1593.0
1783.25, 2020.0
1783.22, 2207.0
1783.2, 2467.0
1783.18, 2748.0
1783.16, 2987.0
1783.13, 2879.0
1783.11, 2722.0
1783.09, 2555.0
1783.06, 2070.0
1783.04, 1715.0
1783.02, 1350.0
1783.0, 1024.0
1782.97, 778.0
1782.95, 611.0
1782.93, 468.0
1782.91, 343.0
1782.88, 286.0
1782.86, 230.0
1782.84, 236.0
1782.81, 184.0
1782.79, 179.0
1782.77, 185.0
1782.75, 167.0
1782.72, 159.0
1782.7, 157.0
1782.68, 170.0
1782.66, 183.0
1782.63, 186.0
1782.61, 218.0
1782.59, 265.0
1782.57, 347.0
1782.54, 394.0
1782.52, 533.0
1782.5, 536.0
1782.47, 744.0
1782.45, 826.0
1782.43, 1042.0
1782.41, 1258.0
1782.38, 1558.0
1782.36, 1713.0
1782.34, 1923.0
1782.32, 2348.0
1782.29, 2779.0
1782.27, 3184.0
1782.25, 3833.0
1782.22, 4301.0
1782.2, 4840.0
1782.18, 5441.0
1782.16, 5869.0
1782.13, 5937.0
1782.11, 5997.0
1782.09, 5429.0
1782.07, 4968.0
1782.04, 4067.0
1782.02, 3203.0
1782.0, 2374.0
1781.97, 1803.0
1781.95, 1355.0
1781.93, 1088.0
1781.91, 724.0
1781.88, 611.0
1781.86, 474.0
1781.84, 403.0
1781.82, 366.0
1781.79, 291.0
1781.77, 263.0
1781.75, 231.0
1781.72, 176.0
1781.7, 161.0
1781.68, 125.0
1781.66, 135.0
1781.63, 108.0
1781.61, 114.0
1781.59, 92.0
1781.57, 75.0
1781.54, 97.0
1781.52, 84.0
1781.5, 95.0
1781.47, 111.0
1781.45, 122.0
1781.43, 132.0
1781.41, 119.0
1781.38, 133.0
1781.36, 172.0
1781.34, 164.0
1781.32, 212.0
1781.29, 224.0
1781.27, 233.0
1781.25, 281.0
1781.23, 328.0
1781.2, 322.0
1781.18, 375.0
1781.16, 406.0
1781.13, 384.0
1781.11, 399.0
1781.09, 370.0
1781.07, 338.0
1781.04, 310.0
1781.02, 232.0
1781.0, 202.0
1780.98, 193.0
1780.95, 169.0
1780.93, 138.0
1780.91, 115.0
1780.88, 75.0
1780.86, 80.0
1780.84, 77.0
1780.82, 66.0
1780.79, 70.0
1780.77, 69.0
1780.75, 70.0
1780.73, 67.0
1780.7, 70.0
1780.68, 75.0
1780.66, 81.0
1780.63, 95.0
1780.61, 103.0
1780.59, 101.0
1780.57, 91.0
1780.54, 101.0
1780.52, 111.0
1780.5, 125.0
1780.48, 162.0
1780.45, 149.0
1780.43, 166.0
1780.41, 207.0
1780.39, 213.0
1780.36, 253.0
1780.34, 302.0
##END NTUPLES= NMR_SPECTRUM
##END= 
